Folder: wire_grid_rcwa/experimental_data/220722 (part 3)

File: s00132_Theta_2-Theta.asc
*TYPE		=  Raw
*CLASS		=  ASCII CLASS
*SAMPLE		=
*COMMENT	=
*FNAME		=  s00132_Theta_2-Theta.asc
*DATE		=  22-Jul-22 10:22

*GROUP_COUNT	=  1
*GONIO		=  SmartLab(In-plane), 0.000000
*ATTACHMENT	=  Z-Phi Stage
*ASC		=  0, 0, 0.000000, 0.000000
*I_MONOCHRO	=  Soller_slit_5.0deg, 0.000000
*FILTER		=  Cu_K-beta
*C_MONOCHRO	=  No_unit, 0.000000
*SLIT_NAME	=  0, Incident slit
*SLIT_NAME	=  1, Receiving slit # 1
*SLIT_NAME	=  2, Receiving slit # 2
*COUNTER	=  HyPix 3000(H), 0
*POS_FORMAT	=  0
*SCAN_AXIS	=  2theta/theta
*MEAS_MODE	=  Continuous Scanning
*TARGET		=  29
*XRAY_CHAR	=  K-ALPHA
*WAVE_LENGTH1	=  1.54059
*WAVE_LENGTH2	=  1.54441
*THICKNESS	=  0, 0.000000
*MU		=  0, 0.000000
*SCAN_MODE	=  2theta/theta
*SPEED_DIM	=  sec./step
*XUNIT		=  deg.
*YUNIT		=  counts
*SCALE_MODE	=  1
*REP_COUNT	=  0
*SE_COUNT	=  0
*STD_MATERIAL	=  Unknown, Unknown, 0.000000, 0.000000, 0.000000, 0.000000, 0.000000, 0.000000
*LATT_CONS	=  0, Unknown, Unknown, 0.000000, 0.000000, 0.000000, 0.000000, 0.000000, 0.000000
*SEC_COUNT	=  1
*TSPEC_SIZE	=  0
*EXTRA_SIZE	=  0
*MEMO		=

*BEGIN
*GROUP		=  0
*START		=  22
*STOP		=  36
*STEP		=  0.01
*OFFSET		=  0.000000
*SPEED		=  0.192275
*SLIT_SPEC	=  0, 1.000deg, 1, 0.000000
*SLIT_SPEC	=  1, 20.000mm, 20, 0.000000
*SLIT_SPEC	=  2, 20.100mm, 20.1, 0.000000
*KV		=  40
*MA		=  44
*LOW		=  0.000000
*HIGH		=  0.000000
*CTEMPER	=  0, 0.000000
*CTEMPER	=  1, 0.000000
*CTEMPER	=  2, 0.000000
*PAREX		=  0, 0.000000
*PAREX		=  1, 0.000000
*PAREX		=  2, 0.000000
*PAREX		=  3, 0.000000
*PAREX		=  4, 0.000000
*PAREX		=  5, 0.000000
*PAREX		=  6, 0.000000
*PAREX		=  7, 0.000000
*PAREX		=  8, 0.000000
*PAREX		=  9, 0.000000
*PAREX		=  10, 0.000000
*PAREX		=  11, 0.000000
*PAREX		=  12, 0.000000
*PAREX		=  13, 0.000000
*PAREX		=  14, 0.000000
*PAREX		=  15, 0.000000
*FULL_SCALE	=  67443.7
*INDEX		=  0, 0, 0
*COUNT		=  1401
8278.6, 8400.74, 8278.16, 8264.38
8230.15, 8091.56, 8357.17, 8242.54
8132.32, 8203.49, 8166.2, 8178.04
8060.84, 8092.25, 8218.44, 8132.33
8108.29, 8098.95, 8071.79, 8251
8125.67, 8137.7, 8093.01, 8097.6
8212.33, 8063.8, 8061.78, 8101.96
7882.03, 8181.73, 7981.35, 8087.31
7981.69, 8060.3, 8081.13, 7920.51
7915.08, 8021.23, 8080.76, 7879.51
8150.65, 8064.58, 8095.5, 8048.28
8186.14, 8230.19, 8219.18, 8360.94
8470.2, 8652.25, 8656.3, 8672.73
9456.37, 9665.11, 9842.22, 10304.2
10643.2, 10486, 10220, 10127.3
9025.78, 8887.13, 8595.1, 8557.91
8320.59, 8185.34, 8232.43, 8152.69
8183.14, 8190.01, 8268.39, 8247.04
8372.87, 8394.61, 8410.73, 8693.41
9325.67, 9626.97, 9635.37, 9715.57
10105.6, 9863.76, 9663.43, 9580.55
8298.65, 8354.83, 8267.62, 8250.71
7827.42, 7690.41, 7644.46, 7726.67
7579.06, 7558.06, 7562.51, 7542.96
7515.58, 7483.05, 7672.88, 7509.75
7562.91, 7700.82, 7663.47, 7566.21
7558.23, 7536.48, 7694.56, 7581.03
7807.37, 7830.57, 7943.7, 7956.07
8253.47, 8446.67, 8694.71, 8817.58
9811.78, 10134.5, 10219.4, 10249.4
9639.92, 9495.65, 9163.57, 8888.58
7874.2, 7650.8, 7476.2, 7356.04
7302.35, 7343.89, 7212.65, 7214.84
7072.19, 7144.7, 7264.07, 7183.14
7058.02, 6970.35, 7183.33, 7112.04
6966.56, 6934.34, 6955.53, 7015.82
7033.56, 6827.93, 6947.27, 6983.48
7033.1, 6889.89, 6812.23, 6904.58
6848.43, 6850.42, 6860.33, 6882.32
6928.23, 6839.58, 6781.01, 6802.75
6791.67, 6765.66, 6748.45, 6868.32
6760.74, 6869.08, 6742.21, 6656.16
6678.58, 6695.3, 6663.4, 6512.56
6613.35, 6633.9, 6604.79, 6506.31
6535.05, 6607.1, 6629.54, 6613.77
6487.44, 6536, 6637.03, 6547.77
6684.3, 6548.91, 6587.75, 6501.57
6588.18, 6566.6, 6601.76, 6558.75
6519.85, 6447.2, 6483.81, 6470.11
6545.34, 6412.88, 6523, 6458.51
6394.32, 6349.56, 6488.83, 6466.71
6520.24, 6420.65, 6461.91, 6442.94
6483.93, 6545.45, 6459.99, 6299.62
6376.8, 6393.69, 6372.73, 6464.69
6408.97, 6431.47, 6438.41, 6496.99
6518.35, 6479.96, 6358.36, 6481.48
6632.04, 6696.88, 6695.68, 6760.15
7037.58, 6900.65, 7035.85, 6976.63
6678.45, 6616.22, 6503.77, 6522.02
6453.99, 6445.35, 6320.37, 6306.86
6249.86, 6118.27, 6128.64, 6192.86
6234.32, 6199.28, 6137.35, 5972.41
5949.23, 5934.21, 6145.4, 5928.22
6052.69, 6046.72, 5865.56, 5881.96
5884.62, 5859.82, 5974.12, 6024.99
5931.85, 5951.08, 5996.21, 5958.42
5941.12, 5850.02, 5745.49, 5812.13
5867.1, 5916.48, 5904.4, 5853.55
5721.72, 5710.99, 5762.95, 5724.84
5759.35, 5756.6, 5742.26, 5733.44
5680.73, 5762.86, 5726.87, 5836.29
5804.42, 5848.09, 5732.55, 5771.23
5623.86, 5665.78, 5593.01, 5654.2
5604.59, 5637.47, 5722.26, 5608.9
5537.26, 5761.73, 5641.37, 5630.02
5709.53, 5594.66, 5677.33, 5614.4
5465.51, 5584.55, 5553.21, 5550.81
5474.52, 5540.56, 5515.67, 5544.94
5466.57, 5607.59, 5400.62, 5414.26
5449.28, 5431.69, 5365.59, 5521.25
5467.3, 5543.91, 5557.21, 5431.34
5442.85, 5608.46, 5493.23, 5411.7
5593.39, 5610.4, 5515.74, 5532.87
5737.1, 5666.27, 5564.15, 5620.19
5740.24, 5647.65, 5706.09, 5598.96
5630.6, 5744.4, 5599.24, 5604.4
5631.88, 5647.48, 5753.18, 5720.22
5633.05, 5641.03, 5573.6, 5512
5442.11, 5337.6, 5398.42, 5345.38
5269.41, 5226.66, 5308.51, 5211.83
5178.75, 5178.55, 5203.52, 5138.15
5165.96, 5219.25, 5322.68, 5152.18
5229.77, 5117.41, 5136.5, 5107.61
5181.15, 5124.85, 5100.92, 5060.48
5046.09, 5006.44, 5168.84, 5052.33
5039.04, 5144.26, 5019.37, 5040.92
4966.51, 4925.83, 5111.65, 5017.48
5004.58, 5006.61, 4933.04, 5058.39
4927.98, 4952.56, 5004.38, 5129.62
4998.85, 4911.7, 4923.14, 4979.82
4875.6, 4933.76, 4979.21, 5013.13
4962.07, 4906.88, 4914.75, 4943.51
4830.51, 4936.09, 4894.15, 4780.11
4795.16, 4822.37, 4907.95, 4882.42
4754.26, 4820.71, 4851.9, 4824.17
4767.22, 4797.16, 4846.8, 4884.41
4710.47, 4934.23, 4825.98, 4751.96
4767.74, 4823.13, 4853.7, 4751.83
4854, 4760.28, 4810.11, 4720.95
4786.36, 4702.56, 4625.62, 4665.25
4673.68, 4710.2, 4806.94, 4655.96
4751.84, 4691.02, 4596.62, 4693.18
4580.79, 4812.61, 4724.84, 4841.5
4608.58, 4549.16, 4594.98, 4728.3
4634.15, 4633.72, 4625.24, 4687.19
4631.36, 4729.47, 4636.97, 4636.03
4641.45, 4661.76, 4562.99, 4589.4
4560.44, 4621.3, 4523.74, 4609.22
4545.35, 4603.93, 4420.35, 4518.44
4452.37, 4644.33, 4632.18, 4521.08
4507.79, 4592.15, 4504.64, 4580.94
4569.51, 4510.08, 4442.11, 4678.87
4510.48, 4450.02, 4502.98, 4444.19
4483.09, 4378.37, 4547.08, 4512.26
4450.54, 4369.18, 4349.04, 4385.47
4422.51, 4533.82, 4407.99, 4549.71
4420.74, 4436.1, 4372.2, 4410.73
4422.08, 4509.46, 4440.72, 4366.7
4377.74, 4397.24, 4480.12, 4461.75
4416.44, 4366.22, 4342.72, 4461.66
4368.13, 4357.37, 4322.7, 4341.24
4318.95, 4462.66, 4320.08, 4399.39
4276.01, 4303.27, 4461.96, 4445.24
4347.91, 4253.4, 4424.5, 4378.71
4296.59, 4215.87, 4333.65, 4294.04
4270.02, 4284.71, 4267.94, 4282
4298.08, 4374.5, 4458.83, 4351.64
4294.3, 4379.24, 4365.6, 4326.53
4456.96, 4342.45, 4354.96, 4433.9
4519.41, 4483.88, 4665.21, 4667.09
4968.98, 5077.32, 5176.83, 5234.9
5190.55, 5159.07, 4988.92, 5049.06
4757.89, 4760.28, 4756.85, 4608.86
4556.49, 4356.03, 4606.21, 4423.45
4440.71, 4455.39, 4547.64, 4497.64
4459.63, 4475.14, 4539.53, 4541.87
4580.22, 4535.4, 4544.81, 4463.51
4542.48, 4498.33, 4417.36, 4440.61
4653.64, 4655.58, 4588.52, 4601.03
4691.42, 4738.3, 4784.34, 4775.14
4790.51, 4887, 4913.4, 5011.47
5223.48, 5401.1, 5537.96, 5654.66
5726.58, 5785.68, 5666.9, 5509.76
4999.66, 4977.34, 4791.64, 4817.35
4420.67, 4320.07, 4329.57, 4293.13
4128.05, 4207.96, 4180.51, 4162.63
4088.13, 3961.12, 4086.02, 4068.47
4032.71, 4079.87, 3973.76, 3959.15
4119.12, 3987.81, 4087.79, 3969.8
3949.84, 3987.59, 3975.89, 3969.64
3996.06, 3958.9, 3921.17, 3873.95
3923.23, 3869.74, 3926.19, 4023.72
3969, 4000.57, 3865.72, 3857.6
3789.42, 3826.41, 3833.53, 3868.1
3985.2, 3841.86, 3863.74, 3861.9
3884.57, 3950.93, 3860.39, 3885.34
3847.61, 3849.52, 3808.12, 3785.58
3968.54, 3943.96, 3937.59, 3964.15
3918.05, 3947.23, 3871.49, 4000.87
3898.54, 4087.7, 3908.29, 3933.13
3934.27, 3992.3, 4015.97, 3959.79
3935.54, 3880.95, 3931.36, 3878.27
3889.54, 3798.49, 3835.05, 3821.81
3843.55, 3775.52, 3759.63, 3817.83
3769.09, 3754.97, 3724.97, 3650.49
3685.99
*END

*EOF