Folder: wire_grid_rcwa/experimental_data/220722 (part 2)

File: s00128_Theta_2-Theta.asc
*TYPE		=  Raw
*CLASS		=  ASCII CLASS
*SAMPLE		=
*COMMENT	=
*FNAME		=  s00128_Theta_2-Theta.asc
*DATE		=  22-Jul-22 10:30

*GROUP_COUNT	=  1
*GONIO		=  SmartLab(In-plane), 0.000000
*ATTACHMENT	=  Z-Phi Stage
*ASC		=  0, 0, 0.000000, 0.000000
*I_MONOCHRO	=  Soller_slit_5.0deg, 0.000000
*FILTER		=  Cu_K-beta
*C_MONOCHRO	=  No_unit, 0.000000
*SLIT_NAME	=  0, Incident slit
*SLIT_NAME	=  1, Receiving slit # 1
*SLIT_NAME	=  2, Receiving slit # 2
*COUNTER	=  HyPix 3000(H), 0
*POS_FORMAT	=  0
*SCAN_AXIS	=  2theta/theta
*MEAS_MODE	=  Continuous Scanning
*TARGET		=  29
*XRAY_CHAR	=  K-ALPHA
*WAVE_LENGTH1	=  1.54059
*WAVE_LENGTH2	=  1.54441
*THICKNESS	=  0, 0.000000
*MU		=  0, 0.000000
*SCAN_MODE	=  2theta/theta
*SPEED_DIM	=  sec./step
*XUNIT		=  deg.
*YUNIT		=  counts
*SCALE_MODE	=  1
*REP_COUNT	=  0
*SE_COUNT	=  0
*STD_MATERIAL	=  Unknown, Unknown, 0.000000, 0.000000, 0.000000, 0.000000, 0.000000, 0.000000
*LATT_CONS	=  0, Unknown, Unknown, 0.000000, 0.000000, 0.000000, 0.000000, 0.000000, 0.000000
*SEC_COUNT	=  1
*TSPEC_SIZE	=  0
*EXTRA_SIZE	=  0
*MEMO		=

*BEGIN
*GROUP		=  0
*START		=  22
*STOP		=  36
*STEP		=  0.01
*OFFSET		=  0.000000
*SPEED		=  0.192275
*SLIT_SPEC	=  0, 1.000deg, 1, 0.000000
*SLIT_SPEC	=  1, 20.000mm, 20, 0.000000
*SLIT_SPEC	=  2, 20.100mm, 20.1, 0.000000
*KV		=  40
*MA		=  44
*LOW		=  0.000000
*HIGH		=  0.000000
*CTEMPER	=  0, 0.000000
*CTEMPER	=  1, 0.000000
*CTEMPER	=  2, 0.000000
*PAREX		=  0, 0.000000
*PAREX		=  1, 0.000000
*PAREX		=  2, 0.000000
*PAREX		=  3, 0.000000
*PAREX		=  4, 0.000000
*PAREX		=  5, 0.000000
*PAREX		=  6, 0.000000
*PAREX		=  7, 0.000000
*PAREX		=  8, 0.000000
*PAREX		=  9, 0.000000
*PAREX		=  10, 0.000000
*PAREX		=  11, 0.000000
*PAREX		=  12, 0.000000
*PAREX		=  13, 0.000000
*PAREX		=  14, 0.000000
*PAREX		=  15, 0.000000
*FULL_SCALE	=  68479.4
*INDEX		=  0, 0, 0
*COUNT		=  1401
9003.17, 8879.57, 8887.19, 8907.95
8955.37, 8839.43, 8721.33, 8787.96
8971.53, 8991.63, 8769.75, 8783.84
8677.15, 8803.71, 8706.91, 8822.74
8752.37, 8772.97, 8796.55, 8690.05
8672.84, 8786.71, 8818.73, 8866.93
8650.71, 8651.64, 8642.49, 8645.7
8884.31, 8647.72, 8674.01, 8687.94
8781.61, 8761.66, 8630.4, 8705.98
8594.98, 8654.11, 8512.09, 8620.77
8656.95, 8551.32, 8589.24, 8617.26
8697.99, 8770.89, 8833.82, 8875.85
9228.18, 9232.8, 9229.71, 9537.43
9885.8, 10102.7, 10141.4, 10512.1
10832.8, 10947.9, 10672.6, 10407.9
9395.09, 9345.26, 9012.86, 9079.62
8768.68, 8629.75, 8561.14, 8605.07
8661.74, 8643.34, 8608.75, 8658.23
8995.68, 8960.1, 8981.09, 9051.81
9596.49, 9683.73, 10003.8, 10090.2
10282, 10194.8, 10086.3, 9827.99
8906.02, 8882.81, 8711.4, 8702.8
8382.71, 8435.56, 8377.9, 8229.49
8248.3, 8188.08, 8197.19, 8276.55
8176.66, 8118.62, 8188.76, 8206.48
8112.97, 8030.43, 8101.38, 8243.02
8132.29, 8232.03, 8110, 8204.56
8423.09, 8514.76, 8388.7, 8652.05
8774.13, 9235.16, 9206.47, 9105.84
10156.5, 10275.4, 10582.8, 10635.8
10034.8, 9721.02, 9703.42, 9435.4
8434.32, 8187.44, 8074.05, 7908.94
7894.92, 7878.78, 7820.01, 7733.71
7826.9, 7719.92, 7711.88, 7711.32
7755.6, 7751.21, 7721.77, 7570.86
7506.03, 7599.17, 7500.85, 7534.99
7551.98, 7500.5, 7548.34, 7499.38
7569.46, 7438.27, 7413.27, 7313.15
7402.98, 7465.01, 7445.9, 7437.95
7352.88, 7446.82, 7373.6, 7347.37
7425.46, 7473.54, 7464.74, 7454.26
7396.32, 7313.45, 7285.48, 7273.65
7268.38, 7226.21, 7227.54, 7237.15
7246.34, 7313.12, 7131.66, 7320.88
7092.8, 7157.77, 7129.86, 7119.05
7124.95, 7235.77, 7257.37, 7093.04
7205.01, 7017.13, 6997.48, 6945.81
7151.81, 7128.51, 7121.47, 7175.51
6953.93, 7035.15, 7126.54, 7133.2
6933.29, 7009.14, 7004.5, 7113.37
6999.22, 7005.89, 7029.51, 7042.74
6926.59, 6960.11, 6912.36, 6838.98
6968.87, 6929.44, 7029.27, 6982.32
6980.13, 6937.36, 7084.42, 7002.62
7002.25, 7044.03, 6930.21, 7080.9
7110.29, 7223.1, 7231.46, 7110.53
7288.35, 7353.13, 7377.54, 7334.8
7612.15, 7584.06, 7483.86, 7478.21
7436.73, 7341.74, 7296.92, 7359.65
7075.15, 7072.84, 7001.29, 6859.98
6868.41, 6650.09, 6990.53, 6860.93
6730.76, 6697.88, 6574.96, 6734.52
6568.94, 6581.82, 6670.14, 6595.2
6592.71, 6639.7, 6615.4, 6520.43
6448.99, 6633.21, 6407.43, 6384.86
6505.56, 6504.54, 6522.29, 6561.39
6395.63, 6409.81, 6465.24, 6504
6322.16, 6308.61, 6403.68, 6304.6
6417.21, 6342.46, 6338.82, 6224.4
6318.39, 6451.51, 6361.5, 6322.09
6267.56, 6257.13, 6270.59, 6238.11
6358.45, 6273.61, 6160.78, 6259.56
6158.47, 6302.42, 6236.09, 6185.54
6047.67, 6292.63, 6189.71, 6140.43
6115.47, 6094.77, 6139.65, 6137.86
6152.65, 5903.56, 6103.82, 5997.76
6099.98, 6134.78, 6073.99, 6017.96
6129.28, 6040.35, 6181.63, 6051.2
6032.63, 6053.74, 6002.08, 6039.89
5907.99, 5928.53, 6018.07, 6101.53
6052.93, 5992.72, 5979.72, 5958.8
6010.46, 6025.47, 6125.45, 5950.27
5989.03, 6178.73, 6100.67, 6132.55
5943.72, 6139.34, 6116.89, 6195.06
6086.9, 6098.61, 6190.92, 6188.7
6025.62, 6171.02, 6124.8, 6134.67
6145.97, 6107.28, 6146.05, 6199.71
5956.4, 5974.17, 6008.7, 5977.03
5820.69, 5966.76, 5792.56, 5769.98
5716.25, 5764.42, 5673.6, 5713.64
5721.92, 5711.18, 5718.34, 5585.33
5763.04, 5700.84, 5561.69, 5604.57
5558.42, 5618.89, 5466.64, 5665.91
5613.3, 5575.14, 5693.15, 5540.11
5547.81, 5598.91, 5552.08, 5519.86
5705.27, 5553.24, 5558.14, 5461.51
5464.2, 5599.27, 5488.24, 5612.86
5471.83, 5487.14, 5480.23, 5489.92
5476.75, 5536.65, 5392.36, 5442.69
5451.78, 5443.24, 5461.89, 5452.26
5391.65, 5368.6, 5418.17, 5313.27
5391.88, 5444.08, 5437.45, 5484.2
5364.35, 5362.03, 5458.17, 5530.7
5252.4, 5493.97, 5299.26, 5445.17
5299.94, 5292.54, 5300.23, 5300.15
5270.31, 5256.81, 5350.56, 5298.29
5295.34, 5288.63, 5257.16, 5343.43
5238.13, 5273.43, 5164.23, 5252.5
5374.08, 5283, 5229.48, 5307.41
5337.47, 5276.68, 5207.97, 5182.61
5135.06, 5314.49, 5154.48, 5219.23
5180.34, 5201.45, 5118.51, 5237.71
5190.93, 5184.99, 5128.95, 5198.62
5119.95, 5115.38, 5182, 5149.03
5120.73, 5073.43, 5114.75, 5086.12
5174.67, 5076.24, 5051.92, 5107.27
5126.93, 5116.16, 5152.09, 5059.13
5122.81, 5038.87, 4990.71, 5136.92
5061.41, 4970.59, 5134.52, 5085.89
5022.44, 5083.99, 5169.18, 5094.52
4903.88, 5038.82, 5109.68, 4922.92
4975.94, 4986.56, 4968.58, 4962.08
4945.39, 5001.99, 4907.87, 4875.97
4965.62, 4930.76, 4950.87, 4897.04
4960.28, 4869.83, 4843.43, 4844.96
4968.13, 4876.29, 4878.53, 4799.9
5072.74, 4742.12, 4791.63, 4786.6
4797.27, 4835.84, 4885.06, 4899.4
4807.72, 4778.5, 4757.98, 4847.74
4901.35, 4799.35, 4841.43, 4890.46
4836.99, 4792.93, 4885.23, 4870.68
4742.79, 4786.79, 4726.91, 4757.12
4731.34, 4761.67, 4677.44, 4807.19
4586.6, 4712.45, 4824.13, 4758.71
4831.87, 4726.21, 4806.99, 4753.59
4718.24, 4725.56, 4645.49, 4683.17
4866.3, 4790.33, 4682.89, 4733.15
4796.5, 4710.03, 4736.24, 4793.44
4771.3, 4830.78, 4707.31, 4789.11
4900.34, 4947.32, 5002.97, 5071.65
5275.66, 5319.28, 5319.37, 5485.11
5605.74, 5352.61, 5383.4, 5407.97
5189.51, 5147.52, 5126.78, 5106.66
4909.24, 4856.98, 4885.24, 4910.11
4917.76, 4990.12, 4947.09, 4926.68
4851.81, 4891.99, 4797.85, 5059.05
4938.08, 4921.13, 5024.72, 4962.08
4931.17, 4863.41, 4983.92, 4930.5
4992.52, 5001.16, 4978.51, 5017.39
5101.04, 5051.66, 5072.48, 4980.84
5303.15, 5313.92, 5177.46, 5184.34
5623.01, 5735.19, 5788.74, 5810.18
5949.23, 6075.2, 6088.6, 5860.52
5447.87, 5386.4, 5180.73, 4995.11
4776.26, 4730.68, 4726.64, 4734.96
4457.21, 4513.03, 4410.98, 4453.17
4428.53, 4511, 4486.63, 4441.3
4289.29, 4376.52, 4290.2, 4403.01
4440.54, 4440.86, 4415.57, 4295.45
4356.33, 4309.32, 4389.46, 4421.85
4388.98, 4344.06, 4367.12, 4272.58
4348.67, 4242.99, 4319.04, 4254.71
4284.81, 4333.63, 4378.52, 4292.02
4221.37, 4291.41, 4181.55, 4308.87
4298.95, 4147.69, 4272.41, 4324.44
4278.69, 4223.97, 4279.97, 4215.24
4213.22, 4140.22, 4319.94, 4287.03
4358.52, 4286.83, 4348.99, 4312.35
4348.66, 4347.61, 4357.67, 4318.41
4362.09, 4276.91, 4195.5, 4341.03
4355.32, 4252.75, 4262.53, 4358.44
4229.6, 4284.3, 4296.62, 4269.65
4106, 4186.62, 4196.19, 4172.66
4050.15, 4131, 4143.2, 4171.26
4126.13, 4091.03, 4069.68, 4082.85
3990.72
*END

*EOF

File: s00129_Theta_2-Theta.asc
*TYPE		=  Raw
*CLASS		=  ASCII CLASS
*SAMPLE		=
*COMMENT	=
*FNAME		=  s00129_Theta_2-Theta.asc
*DATE		=  22-Jul-22 10:13

*GROUP_COUNT	=  1
*GONIO		=  SmartLab(In-plane), 0.000000
*ATTACHMENT	=  Z-Phi Stage
*ASC		=  0, 0, 0.000000, 0.000000
*I_MONOCHRO	=  Soller_slit_5.0deg, 0.000000
*FILTER		=  Cu_K-beta
*C_MONOCHRO	=  No_unit, 0.000000
*SLIT_NAME	=  0, Incident slit
*SLIT_NAME	=  1, Receiving slit # 1
*SLIT_NAME	=  2, Receiving slit # 2
*COUNTER	=  HyPix 3000(H), 0
*POS_FORMAT	=  0
*SCAN_AXIS	=  2theta/theta
*MEAS_MODE	=  Continuous Scanning
*TARGET		=  29
*XRAY_CHAR	=  K-ALPHA
*WAVE_LENGTH1	=  1.54059
*WAVE_LENGTH2	=  1.54441
*THICKNESS	=  0, 0.000000
*MU		=  0, 0.000000
*SCAN_MODE	=  2theta/theta
*SPEED_DIM	=  sec./step
*XUNIT		=  deg.
*YUNIT		=  counts
*SCALE_MODE	=  1
*REP_COUNT	=  0
*SE_COUNT	=  0
*STD_MATERIAL	=  Unknown, Unknown, 0.000000, 0.000000, 0.000000, 0.000000, 0.000000, 0.000000
*LATT_CONS	=  0, Unknown, Unknown, 0.000000, 0.000000, 0.000000, 0.000000, 0.000000, 0.000000
*SEC_COUNT	=  1
*TSPEC_SIZE	=  0
*EXTRA_SIZE	=  0
*MEMO		=

*BEGIN
*GROUP		=  0
*START		=  22
*STOP		=  36
*STEP		=  0.01
*OFFSET		=  0.000000
*SPEED		=  0.192275
*SLIT_SPEC	=  0, 1.000deg, 1, 0.000000
*SLIT_SPEC	=  1, 20.000mm, 20, 0.000000
*SLIT_SPEC	=  2, 20.100mm, 20.1, 0.000000
*KV		=  40
*MA		=  44
*LOW		=  0.000000
*HIGH		=  0.000000
*CTEMPER	=  0, 0.000000
*CTEMPER	=  1, 0.000000
*CTEMPER	=  2, 0.000000
*PAREX		=  0, 0.000000
*PAREX		=  1, 0.000000
*PAREX		=  2, 0.000000
*PAREX		=  3, 0.000000
*PAREX		=  4, 0.000000
*PAREX		=  5, 0.000000
*PAREX		=  6, 0.000000
*PAREX		=  7, 0.000000
*PAREX		=  8, 0.000000
*PAREX		=  9, 0.000000
*PAREX		=  10, 0.000000
*PAREX		=  11, 0.000000
*PAREX		=  12, 0.000000
*PAREX		=  13, 0.000000
*PAREX		=  14, 0.000000
*PAREX		=  15, 0.000000
*FULL_SCALE	=  72935.5
*INDEX		=  0, 0, 0
*COUNT		=  1401
8638.44, 8572.69, 8710.23, 8627.26
8769.16, 8660.15, 8466.99, 8639.97
8397.86, 8509.53, 8543.17, 8700.4
8657.13, 8723.38, 8683.21, 8713.02
8448.67, 8559.22, 8573.7, 8565.99
8532.24, 8565.67, 8565.31, 8386.33
8615.61, 8608.77, 8523.9, 8486.33
8442.72, 8422.27, 8571.68, 8478.15
8474.12, 8435.39, 8576.26, 8521.7
8603.75, 8464.11, 8563.53, 8429.88
8370.47, 8403.29, 8465.63, 8644.34
8606.69, 8692.58, 8609.39, 8888.9
9005.66, 9118.54, 9239.09, 9370.16
10154.3, 10468.8, 10682.1, 11333
11619.5, 11305, 11252.3, 10907.1
9661.43, 9389.05, 9111.84, 9002.63
8672.08, 8499.03, 8580.89, 8563.92
8686.59, 8482.06, 8441.86, 8545.98
8913.13, 8892.33, 8924.08, 9138.79
9963.69, 9985.76, 10181.5, 10412.3
10553.9, 10451, 10250, 9880.61
9087.38, 8800.85, 8718.37, 8474.71
8287.41, 8260.18, 8151.64, 8153.04
8053.5, 8073.77, 8181.31, 8218.49
7962.72, 7877.39, 7981.55, 8024.25
8004.15, 8058.38, 7917.37, 7987.54
8015.33, 8078.92, 8083.06, 7916.19
8205.11, 8275.78, 8372.24, 8338.82
9067.28, 9094.83, 9228.81, 9512.76
10736.4, 10961.6, 11132, 11368.3
10436.2, 10183.5, 9932.97, 9650.93
8242.54, 8190.11, 7975.87, 8020.41
7750.18, 7639.37, 7807.59, 7638.54
7555.55, 7625.44, 7496.43, 7607.17
7410.52, 7397.63, 7585.05, 7464.2
7322.88, 7348.81, 7490.52, 7385.31
7316.97, 7313.5, 7403.84, 7330.52
7220.66, 7294.53, 7276.01, 7185.01
7158.52, 7241.31, 7231, 7140.24
7208.09, 7378.45, 7192.48, 7088.28
7066.51, 7250.09, 7143.63, 7042.92
7223.19, 7231.19, 7112.51, 7242.85
7043.03, 7096.05, 7048.5, 7074.09
7023.71, 7062.95, 6873.45, 6925
6929.79, 6946.91, 6832.81, 6984.88
7046.81, 6968.48, 6864.5, 6908.32
6783.88, 6813.75, 6975.87, 6944.1
6845.47, 6932.01, 6931.11, 7047.11
6796.18, 6812.69, 6832.11, 6766
6813.71, 6776.85, 6896.58, 6832.2
6762.32, 6700.96, 6825.21, 6767.86
6735.4, 6739.68, 6811.3, 6727.18
6658.35, 6686.64, 6582.77, 6740.38
6589.9, 6537.26, 6730.94, 6717.6
6747.68, 6568.55, 6717.83, 6703.53
6727.15, 6597.64, 6631.97, 6770.06
6614.21, 6694.29, 6733.86, 6796.86
6883.09, 6982.31, 7068.1, 6991.82
6785.59, 6771.51, 6718.71, 6592.75
6518.62, 6473.53, 6592.01, 6524.45
6413.56, 6369.72, 6481.01, 6478.77
6355.33, 6418.36, 6333.65, 6257.27
6333.95, 6229.82, 6367.19, 6346.46
6124.2, 6341.36, 6319.5, 6258.3
6282.88, 6365.82, 6322.71, 6296.44
6271.37, 6289.64, 6303.91, 6219.12
6203.09, 6159.75, 6122.02, 6105.57
6109.35, 6286.74, 6123.57, 6075.94
6196.7, 6081.82, 6088.37, 6062.68
6013.28, 6185.17, 6066.16, 6163.41
6149.52, 6017.91, 6113.22, 6240.31
6066.66, 6169.91, 6112.39, 5848.26
5975.31, 5982.24, 5928.04, 5913.64
5900.66, 5957.79, 6053.38, 5980.39
5984.93, 6042.31, 5968.35, 5924.05
5997.69, 6055.12, 5947.59, 5890.75
6009.11, 6027.56, 5860, 5881.45
5863.28, 5852.45, 5884.73, 5827.09
5902.06, 5874.84, 5848.74, 5733.78
5891.38, 5918.65, 5764.59, 5720.6
5898.61, 5811.78, 5780.67, 5842.64
5825.05, 5797.72, 5724.37, 5890.46
5948.98, 5935.36, 5866.44, 6027.75
6060.69, 5994.55, 5995.56, 6046.23
6019.83, 6114.83, 6008.31, 6131.8
5971.43, 6057.73, 6042.41, 6123.74
6028.04, 6095.03, 6111.64, 6180.61
5849.83, 5852.53, 5771.54, 5900.51
5761.25, 5826.96, 5705.58, 5693.01
5635.98, 5517.58, 5527.88, 5554.3
5532.08, 5512.91, 5554.67, 5626.44
5537.04, 5519.82, 5437.71, 5469.49
5474.42, 5473.14, 5538.97, 5563.49
5604.01, 5522.05, 5377.64, 5494.24
5385.79, 5373.29, 5407.92, 5313.22
5397.57, 5495.01, 5340.16, 5372.22
5382.3, 5399.91, 5284.96, 5358.93
5311.26, 5355.42, 5224.97, 5316.13
5356.74, 5412.53, 5349.13, 5199.14
5268.98, 5282.65, 5235.68, 5293.39
5202.81, 5251.11, 5257.62, 5230.94
5205.54, 5218.61, 5259.65, 5330.18
5281.52, 5251.71, 5349.13, 5278.43
5155.6, 5139.77, 5216.25, 5332.52
5292.57, 5157.24, 5130.21, 5035.88
5092.95, 5133.76, 5006.27, 5201.02
5115.17, 4970.79, 5084.74, 5043.69
5175.93, 5061.02, 5031.43, 4998.63
5029.47, 5081.17, 5068.04, 5183.5
5110.06, 5129.99, 5107.87, 4982.46
5022.59, 5082.28, 5001.54, 4869.25
5139.34, 5170.61, 5064.45, 5130.83
5010.48, 4990.23, 4907.19, 5061.53
4805.52, 4978.45, 4975.25, 5106.77
4970.64, 4951.93, 4906.7, 4829.96
5022.47, 4926.75, 4892.54, 4883.94
4847.28, 4974.99, 4870.09, 4877.55
4806.49, 4865.28, 4812.69, 4994.35
4843.39, 4817.7, 4771.88, 4825.05
4829.81, 4998.15, 4903.66, 4747.53
4821.78, 4874.06, 4789.67, 4811.11
4772.77, 4832.97, 4867.24, 4747.65
4775.63, 4808.06, 4800.2, 4734.21
4787.61, 4851.9, 4863.5, 4838.19
4733.88, 4666.24, 4642.81, 4717.97
4662.42, 4575.89, 4775.46, 4628.42
4559.97, 4791.18, 4753.01, 4723.21
4796.04, 4736.59, 4739.34, 4775.44
4659.85, 4642.52, 4490.95, 4702.41
4640.14, 4655.59, 4616.62, 4571.84
4526.44, 4668.91, 4584.56, 4577.45
4708.09, 4651.18, 4616.05, 4590.75
4639.04, 4575.6, 4551.24, 4613.16
4519.37, 4539.48, 4574.87, 4571.07
4583.29, 4479.4, 4540.67, 4539.96
4616.98, 4579.43, 4574.55, 4514.97
4597.12, 4453.77, 4584.53, 4545.22
4631.2, 4601.85, 4471.74, 4404.6
4615.1, 4665.34, 4659.91, 4681.47
4684.59, 4786.71, 4826.53, 4805.37
5318.49, 5455.52, 5489.4, 5607.79
5382.86, 5470.54, 5404.49, 5337.27
5053.9, 4987.48, 4992.02, 4811.66
4730.87, 4635.01, 4669.56, 4671.62
4737.51, 4752.25, 4749.23, 4687.3
4691.52, 4726.7, 4724.11, 4735.24
4654.14, 4751.01, 4663.21, 4799.04
4730.21, 4640.95, 4694.84, 4726.52
4645.5, 4734.78, 4641.64, 4865.24
4841.59, 4790.22, 4810.39, 4821.21
5055.56, 5028.24, 5100.52, 5176.4
5697.44, 5781.79, 5853.61, 5927.27
6229.62, 6107.47, 5986.5, 5907.51
5389.66, 5289.98, 5097.71, 5168.28
4573.87, 4611.72, 4465.3, 4510.37
4394.83, 4342.57, 4329.37, 4385.42
4382.07, 4250.52, 4315.5, 4276.47
4254.38, 4293.45, 4173.28, 4234.69
4213.54, 4185.7, 4136.01, 4235.35
4222.69, 4144.7, 4133.65, 4156.21
4180.75, 4135.57, 4162.36, 4184.28
4145.24, 4032.45, 4087.13, 4153.41
4151.4, 4086.61, 4123.14, 4081.88
4124.57, 4185.87, 4059.46, 4147.05
4126.99, 4105.75, 4170.79, 4177.42
4112.61, 4168.74, 4093.16, 4109.29
4044.05, 4062.02, 4122.93, 4116.51
4159.7, 4083.74, 4206.69, 4218.61
4249.59, 4093.88, 4097.48, 4175.87
4186.27, 4169.84, 4190.22, 4104.26
4080.47, 4207.53, 4188.07, 4106.11
4128.01, 4108.89, 4231.11, 4156.05
4163.14, 4062.37, 4065.1, 4049.32
4104.2, 3973.86, 4028.44, 4042.57
3848.11, 4042.65, 3954.75, 4014.98
3888.87
*END

*EOF

File: s00131_Theta_2-Theta.asc
*TYPE		=  Raw
*CLASS		=  ASCII CLASS
*SAMPLE		=
*COMMENT	=
*FNAME		=  s00131_Theta_2-Theta.asc
*DATE		=  22-Jul-22 10:38

*GROUP_COUNT	=  1
*GONIO		=  SmartLab(In-plane), 0.000000
*ATTACHMENT	=  Z-Phi Stage
*ASC		=  0, 0, 0.000000, 0.000000
*I_MONOCHRO	=  Soller_slit_5.0deg, 0.000000
*FILTER		=  Cu_K-beta
*C_MONOCHRO	=  No_unit, 0.000000
*SLIT_NAME	=  0, Incident slit
*SLIT_NAME	=  1, Receiving slit # 1
*SLIT_NAME	=  2, Receiving slit # 2
*COUNTER	=  HyPix 3000(H), 0
*POS_FORMAT	=  0
*SCAN_AXIS	=  2theta/theta
*MEAS_MODE	=  Continuous Scanning
*TARGET		=  29
*XRAY_CHAR	=  K-ALPHA
*WAVE_LENGTH1	=  1.54059
*WAVE_LENGTH2	=  1.54441
*THICKNESS	=  0, 0.000000
*MU		=  0, 0.000000
*SCAN_MODE	=  2theta/theta
*SPEED_DIM	=  sec./step
*XUNIT		=  deg.
*YUNIT		=  counts
*SCALE_MODE	=  1
*REP_COUNT	=  0
*SE_COUNT	=  0
*STD_MATERIAL	=  Unknown, Unknown, 0.000000, 0.000000, 0.000000, 0.000000, 0.000000, 0.000000
*LATT_CONS	=  0, Unknown, Unknown, 0.000000, 0.000000, 0.000000, 0.000000, 0.000000, 0.000000
*SEC_COUNT	=  1
*TSPEC_SIZE	=  0
*EXTRA_SIZE	=  0
*MEMO		=

*BEGIN
*GROUP		=  0
*START		=  22
*STOP		=  36
*STEP		=  0.01
*OFFSET		=  0.000000
*SPEED		=  0.192275
*SLIT_SPEC	=  0, 1.000deg, 1, 0.000000
*SLIT_SPEC	=  1, 20.000mm, 20, 0.000000
*SLIT_SPEC	=  2, 20.100mm, 20.1, 0.000000
*KV		=  40
*MA		=  44
*LOW		=  0.000000
*HIGH		=  0.000000
*CTEMPER	=  0, 0.000000
*CTEMPER	=  1, 0.000000
*CTEMPER	=  2, 0.000000
*PAREX		=  0, 0.000000
*PAREX		=  1, 0.000000
*PAREX		=  2, 0.000000
*PAREX		=  3, 0.000000
*PAREX		=  4, 0.000000
*PAREX		=  5, 0.000000
*PAREX		=  6, 0.000000
*PAREX		=  7, 0.000000
*PAREX		=  8, 0.000000
*PAREX		=  9, 0.000000
*PAREX		=  10, 0.000000
*PAREX		=  11, 0.000000
*PAREX		=  12, 0.000000
*PAREX		=  13, 0.000000
*PAREX		=  14, 0.000000
*PAREX		=  15, 0.000000
*FULL_SCALE	=  64665.9
*INDEX		=  0, 0, 0
*COUNT		=  1401
8148.64, 8533.96, 8253, 8307.31
8294.39, 8380.05, 8233.96, 8305.91
8323.71, 8410.93, 8300.96, 8371.19
8362.59, 8293.03, 8320.19, 8356.36
8364.83, 8318.58, 8060.69, 8136.45
8372.01, 8357.45, 8280.2, 8308.89
8176.82, 8336.7, 8265, 8269.65
8240.33, 8110.24, 8327.61, 8222.17
8250.59, 8159.61, 8232.93, 8097.25
8235.39, 8256.51, 8255.79, 8238.33
8175.72, 8298.77, 8258.25, 8276.23
8212.02, 8309.11, 8348.11, 8407.09
8426.14, 8609.76, 8625.94, 8808.58
9357.14, 9619.81, 9795.69, 9908.74
10188.5, 10080.5, 9990.56, 9885.14
8905.99, 8746.64, 8780.17, 8594.55
8341.14, 8243.39, 8030.15, 8145.7
8188.48, 8307.63, 8252.64, 8226.72
8470.1, 8514.35, 8390.28, 8543.85
9182.48, 9209.75, 9436.79, 9625.75
9604.31, 9544.19, 9352.62, 9223.44
8457.6, 8374.42, 8307.3, 8124.25
7908.04, 8081.39, 8026.6, 7926.16
7705.82, 7837.41, 7859.93, 7618.35
7610.13, 7765.73, 7685.47, 7639.6
7677.94, 7693.08, 7694.22, 7875.89
7652.15, 7713.54, 7744.3, 7790.99
8044.49, 8039.95, 7941.9, 8023.77
8326.91, 8386.11, 8596.23, 8673.79
9604.01, 9633.26, 10000.4, 10015
9415.17, 9227.01, 9039.05, 8721.26
7872.07, 7711.49, 7664.49, 7392.36
7413.88, 7558.88, 7516.19, 7335.03
7335.06, 7361.03, 7321.29, 7177.05
7146.11, 7373.09, 7149.62, 7214.55
7037.56, 7113.74, 7118.95, 7152.71
7127.96, 7086.33, 7056.37, 7165.58
7067.61, 7057.35, 7095.82, 6989.49
6908.96, 7048.38, 6926.53, 7046.85
7017.75, 6913.11, 6820.41, 6920.34
6922.22, 7026.56, 7108.03, 6880.76
6697.23, 6902.82, 6971.96, 7020.73
6782.76, 6925.49, 6858.79, 6875.59
6837.92, 6781.87, 6854.39, 6807.09
6692.94, 6818.21, 6763.96, 6707.95
6819.12, 6762.17, 6551.36, 6755.69
6708.54, 6772.57, 6846.52, 6658.6
6530.87, 6613.61, 6617.48, 6661.9
6615.62, 6656.81, 6644.04, 6625.93
6572.55, 6674.81, 6688.77, 6587.62
6505.77, 6603.5, 6572.38, 6641.72
6553.01, 6555.13, 6689.83, 6611.76
6643.58, 6498.87, 6527.59, 6576.33
6651.65, 6489.24, 6499.1, 6548.45
6638.43, 6699.99, 6523.11, 6576.06
6670.01, 6638.15, 6536.1, 6626.14
6823.84, 6848.75, 6755.2, 6882.83
6991.53, 6894.76, 7008, 7078.16
6829.31, 6816.99, 6625.54, 6658.74
6509.17, 6530.27, 6504.97, 6513.49
6455.3, 6220.06, 6370.29, 6470.87
6300.2, 6325.62, 6365.6, 6212.69
6201.11, 6352.34, 6113.63, 6285.46
6226.44, 6201.28, 6115.79, 6092.71
6149.37, 6127.82, 5986.68, 5994
6148.4, 5982.1, 6085.89, 6051.97
6024.65, 5928.37, 5931.4, 5922.32
5905.97, 5906.63, 5853.47, 5970.5
5932.56, 5869.02, 6005.02, 5901.81
6008.94, 5845.05, 5793.47, 5828.07
5817.01, 5765.23, 5767.04, 5817.96
5861.76, 5823.65, 5822.25, 5829.67
5845.92, 5790.43, 5844.14, 5720.29
5829.92, 5770.7, 5755.58, 5874.41
5754.69, 5694.34, 5794.39, 5730.91
5681.9, 5760.64, 5861.95, 5764.89
5644.9, 5690.49, 5742.52, 5648.7
5601.29, 5552.12, 5589.34, 5522
5623.11, 5637.5, 5739.71, 5647.67
5698.59, 5741.15, 5613.73, 5611.17
5700.78, 5515.73, 5578.36, 5687.03
5701.07, 5585.39, 5656.65, 5730.97
5774.79, 5677.66, 5666.51, 5660.11
5724.43, 5666.47, 5833.24, 5875.26
5831.93, 5672.95, 5713.27, 5710.01
5705.93, 5722.02, 5730.65, 5665.39
5759.3, 5699.42, 5761.41, 5629.73
5592.8, 5592.99, 5580.47, 5579.21
5347.64, 5414.9, 5407.51, 5387.33
5338.22, 5447.37, 5258.1, 5438.85
5374.63, 5295.46, 5283.02, 5348.96
5232.57, 5325.44, 5246.68, 5213.23
5163.7, 5254.49, 5257.48, 5208.42
5280.16, 5223.75, 5223.81, 5189.71
5213.59, 5218.52, 5187.34, 5126.32
5194.54, 5196.51, 5098.11, 5199.96
5223.07, 5057.88, 5146.82, 5142.75
5110.3, 5181.89, 5120, 5181.24
5105.43, 5059.59, 5118.31, 5094.49
5092.64, 5065.34, 5144.68, 4996.58
5097.04, 5003.99, 4942.42, 4903.45
4966.65, 5103.32, 4968.51, 4867.32
5034.52, 5063.23, 4953.49, 5000.35
4958.29, 4981.04, 4978.2, 5079.2
4944.99, 4960.21, 4986.04, 4999.46
4936.51, 4905.63, 4889.48, 4895.14
5006.51, 4993.17, 4952.49, 4852.69
4834.06, 4771.19, 4809.43, 4898.34
4797.08, 4835.98, 4899, 4747.63
4904.35, 4876.8, 4714.71, 4801.82
4768.89, 4817.91, 4944.54, 4815.54
4714.67, 4787.24, 4827.82, 4767.93
4657.27, 4846.41, 4731.23, 4818.92
4817.26, 4741.3, 4738.98, 4769.06
4831.09, 4734.9, 4713.96, 4704.64
4678.17, 4704.22, 4705.1, 4600
4674.77, 4684.54, 4812.72, 4700.99
4710.06, 4711.71, 4640.21, 4664.29
4639.43, 4672.5, 4682.78, 4658.54
4671.19, 4710.81, 4636.22, 4673.34
4674.3, 4620.48, 4660.83, 4634.46
4622.3, 4568.59, 4534.86, 4661.4
4661.61, 4609.16, 4607.96, 4587.5
4537.81, 4588.79, 4483.2, 4628.79
4635.8, 4569.04, 4573.25, 4483.48
4591.16, 4666.65, 4610.2, 4521.12
4502.36, 4509.73, 4494.51, 4498.35
4471.18, 4479.46, 4558.75, 4559.45
4483.13, 4565.33, 4457.83, 4436.62
4482.58, 4356.41, 4454.12, 4437.16
4560.04, 4426.84, 4433.3, 4430.43
4469.09, 4481.01, 4515.29, 4458.93
4387.62, 4401.52, 4449.04, 4413.67
4462.41, 4405.22, 4407.61, 4457.23
4442.15, 4422.3, 4440.08, 4434.36
4334.41, 4425.54, 4401.47, 4426.72
4306.96, 4396.23, 4439.57, 4396.37
4416.13, 4366.79, 4319.21, 4314.27
4462.38, 4549.33, 4478.74, 4460.97
4596.45, 4608.33, 4596.05, 4632.41
5019.53, 5091.26, 5151.83, 5181.4
5145.88, 5109.36, 5012.29, 5005.4
4840.1, 4760.26, 4683.63, 4609.47
4389.51, 4415.63, 4504.85, 4448.54
4633.82, 4537.32, 4635.09, 4542.53
4506.73, 4578.09, 4484.3, 4537.59
4668.08, 4521.39, 4517.87, 4510.96
4610.67, 4487.76, 4475.46, 4510.18
4573.02, 4489.22, 4556, 4606.4
4725.26, 4624.32, 4577.6, 4699.02
4934.71, 4906.26, 4824.64, 4921.67
5350.79, 5259.3, 5270.46, 5293.89
5661.21, 5715.81, 5533.01, 5311.57
5019.86, 4842.37, 4803.41, 4674.36
4493.37, 4360.46, 4249.95, 4392.88
4182, 4191.38, 4167.07, 4217.51
4175.8, 4148.49, 4014.74, 4050.1
4143.14, 4128.62, 4062.83, 4152.7
4110.53, 4047.51, 4009.71, 3988.67
4153.68, 4144.21, 4069.65, 4117.29
4096.99, 4083.23, 4114.22, 4094.98
4067.09, 3994.34, 4052.81, 4067.39
4083.78, 4108.01, 4067.96, 4013.58
3974.76, 3972.64, 3946.32, 4152.79
3950.53, 4012.58, 3906.8, 3906.37
3980.48, 4000.55, 4020.17, 4023.4
3978.9, 4000.08, 4003.27, 4034.46
4051.76, 3940.15, 4008.94, 4063.03
4013.09, 4112.3, 4030.23, 4055.72
4018.79, 4141.89, 3992.1, 3904.6
3988.97, 4118.23, 3963.91, 3918.13
4022.47, 4106.51, 4004.3, 4009.13
3951.95, 3919.96, 3945.03, 3950.06
3950.42, 3979.36, 3839.31, 3865.33
3806.11, 3888.27, 3870.14, 3832.83
3950.33
*END

*EOF