Folder: wire_grid_rcwa/experimental_data/220722

Note: README.md
# Installing the package

1. Clone the repository
2. Install dependencies with `pip install -r requirements.txt`

# Using the package

The general workflow for using the package to extract dielectric/electronic parameters is as follows:

1. Use `transfer_function` function to calculate the transfer function from the collected sample and reference THz pulses, e.g.:
```matlab
tf = wgr.transfer_function(t_smp, A_smp, t_ref, A_ref,
                               freqs = freq, zero_padding = 2**18)
```

2. Define sample and reference geometry, e.g.:

```matlab
 s_ref = wgr.Structure(ys = ys, nh = nh,
                          layers = [wgr.Slab(...),
                                    wgr.Wires(...)],
                          half_space_tr = wgr.HalfSpaceTr(...))
                      
    s_smp = wgr.Structure(ys = ys, nh = nh,
                          layers = [wgr.Slab(...),
                                    wgr.Wires(...)],
                          half_space_tr = wgr.HalfSpaceTr(...))
```


3. Perform data extraction:

```matlab
 extracted = wgr.Extractor.extract(s_ref, s_smp,
                                      fill_mat_on, freq, tf, 9.01 - 0.001*1j)
```



A full example can be found in `ds_test.py`

File: fine_s00125_Theta_2-Theta.asc
*TYPE		=  Raw
*CLASS		=  ASCII CLASS
*SAMPLE		=
*COMMENT	=
*FNAME		=  fine_s00125_Theta_2-Theta.asc
*DATE		=  22-Jul-22 11:08

*GROUP_COUNT	=  1
*GONIO		=  SmartLab(In-plane), 0.000000
*ATTACHMENT	=  Z-Phi Stage
*ASC		=  0, 0, 0.000000, 0.000000
*I_MONOCHRO	=  Soller_slit_5.0deg, 0.000000
*FILTER		=  Cu_K-beta
*C_MONOCHRO	=  No_unit, 0.000000
*SLIT_NAME	=  0, Incident slit
*SLIT_NAME	=  1, Receiving slit # 1
*SLIT_NAME	=  2, Receiving slit # 2
*COUNTER	=  HyPix 3000(H), 0
*POS_FORMAT	=  0
*SCAN_AXIS	=  2theta/theta
*MEAS_MODE	=  Continuous Scanning
*TARGET		=  29
*XRAY_CHAR	=  K-ALPHA
*WAVE_LENGTH1	=  1.54059
*WAVE_LENGTH2	=  1.54441
*THICKNESS	=  0, 0.000000
*MU		=  0, 0.000000
*SCAN_MODE	=  2theta/theta
*SPEED_DIM	=  sec./step
*XUNIT		=  deg.
*YUNIT		=  counts
*SCALE_MODE	=  1
*REP_COUNT	=  0
*SE_COUNT	=  0
*STD_MATERIAL	=  Unknown, Unknown, 0.000000, 0.000000, 0.000000, 0.000000, 0.000000, 0.000000
*LATT_CONS	=  0, Unknown, Unknown, 0.000000, 0.000000, 0.000000, 0.000000, 0.000000, 0.000000
*SEC_COUNT	=  1
*TSPEC_SIZE	=  0
*EXTRA_SIZE	=  0
*MEMO		=

*BEGIN
*GROUP		=  0
*START		=  22
*STOP		=  25
*STEP		=  0.01
*OFFSET		=  0.000000
*SPEED		=  0.592275
*SLIT_SPEC	=  0, 1.000deg, 1, 0.000000
*SLIT_SPEC	=  1, 20.000mm, 20, 0.000000
*SLIT_SPEC	=  2, 20.100mm, 20.1, 0.000000
*KV		=  40
*MA		=  44
*LOW		=  0.000000
*HIGH		=  0.000000
*CTEMPER	=  0, 0.000000
*CTEMPER	=  1, 0.000000
*CTEMPER	=  2, 0.000000
*PAREX		=  0, 0.000000
*PAREX		=  1, 0.000000
*PAREX		=  2, 0.000000
*PAREX		=  3, 0.000000
*PAREX		=  4, 0.000000
*PAREX		=  5, 0.000000
*PAREX		=  6, 0.000000
*PAREX		=  7, 0.000000
*PAREX		=  8, 0.000000
*PAREX		=  9, 0.000000
*PAREX		=  10, 0.000000
*PAREX		=  11, 0.000000
*PAREX		=  12, 0.000000
*PAREX		=  13, 0.000000
*PAREX		=  14, 0.000000
*PAREX		=  15, 0.000000
*FULL_SCALE	=  66797.9
*INDEX		=  0, 0, 0
*COUNT		=  301
27620.6, 27595, 27304.4, 27416.6
27391.4, 27409.6, 27367.1, 27095.2
27229.7, 27416.5, 27261.2, 27285.2
27362.9, 27514.8, 27509.1, 27221.5
27274.3, 27471.7, 27152.9, 26879.8
27017.1, 27104.3, 27180.1, 27067.9
27176.6, 27149.3, 27302.6, 27320.9
27153.3, 27208.8, 27079.8, 27182.1
27324.1, 27132.1, 27205, 27136.6
27181.4, 26926.4, 26922.7, 26899.3
27088, 26871.4, 27039.5, 27022.4
26926.1, 26747.2, 26824.6, 26712.1
26943.8, 27052.9, 27146.3, 26895.7
27014.6, 27145.1, 26926, 26868.4
26843.2, 26647.2, 26947, 26924.3
26894.7, 26590.6, 26729.4, 26598
26536.8, 26702.6, 26550.5, 26675.5
26831.4, 26897.9, 26623.5, 26677
26625.7, 26929.7, 26683.6, 26725.7
26771.6, 26842.1, 26725.2, 26760.8
26977.5, 26838.2, 26830, 26955.8
26846.5, 26944.1, 27002.9, 26914
27014.1, 27006.5, 27054.3, 27067.7
27262, 27476.4, 27546.4, 27709.3
27996, 27960.6, 28113.4, 28188.4
28266.5, 28610.7, 29014.3, 29230
29533.2, 30226.4, 30489.4, 31061
31641.9, 32091.7, 32831.7, 32628.9
32968.9, 32549.6, 32322.5, 31699.5
31126.4, 30846.5, 30538.3, 30066.7
29473.5, 28958.7, 28674.4, 28286
27603.7, 27246, 26911.7, 27202.7
26988.9, 27161.8, 26798.9, 26915.5
26774.1, 26670, 26655.9, 26523.4
26609.5, 26598.1, 26595.1, 26519.5
26882.7, 26660.4, 27042.5, 26696.9
26980.3, 27383.9, 27328.5, 27478.3
27724.7, 27855.3, 28002.5, 28439.4
28634.1, 29310.5, 29828, 30198.9
30713.8, 30741.3, 30935.5, 31383.6
31122, 30925.8, 30638.9, 30149.2
29421.2, 28751.6, 28488.1, 28262.5
27656.2, 27193.6, 26828.6, 26541.5
26637.2, 26238.2, 26247.4, 26062.4
25719.8, 25673, 25616.7, 25399.1
25572.6, 25680, 25224.3, 25278.2
25345.6, 25063.7, 25126.6, 25026.4
24919.9, 25027.1, 25127.4, 25147.3
25241.3, 25036.2, 25056.1, 24703.9
25034.6, 25110.5, 25110.6, 25039.3
25091.2, 24875.9, 24829.7, 24838
24972.6, 25101.2, 24891.1, 24993
24779.6, 25183.2, 24998.8, 25138.3
25225.3, 25179.4, 25387.7, 25363.2
25443.7, 25716.2, 25886, 25951.5
26007.7, 25899.5, 26148, 26565.5
26628.8, 27002.1, 27373.7, 27308.1
27758.5, 28143, 28730.3, 29138.8
29761.8, 30428.4, 30696, 31422.6
31694.3, 31505.2, 31118.3, 31101.3
30348.7, 29700.7, 29213.6, 28906.6
27677.7, 27473.1, 26922.1, 26215.3
25763.3, 25443.3, 25086.9, 25063.4
24489.3, 24442.5, 24295.1, 24206
24302.9, 24284.1, 24064.7, 23792.1
23843, 23767, 23875.9, 23636
23752.6, 23828.8, 23625.2, 23456.5
23320.2, 23499.4, 23693.4, 23872.5
23345.9, 23574.6, 23365, 23381.6
23185.2, 23273.8, 23314.9, 23542.9
23184.7, 23212.5, 23218, 23512.1
23232.3, 22843.7, 23209.1, 23259.2
23185.3, 22884.8, 23186.7, 23192.8
22805.7, 23021.2, 23030, 22775.7
22863.2, 22926.2, 22992.1, 22977.1
23091.5
*END

*EOF

File: s00124_Theta_2-Theta.asc
*TYPE		=  Raw
*CLASS		=  ASCII CLASS
*SAMPLE		=
*COMMENT	=
*FNAME		=  s00124_Theta_2-Theta.asc
*DATE		=  22-Jul-22 10:51

*GROUP_COUNT	=  1
*GONIO		=  SmartLab(In-plane), 0.000000
*ATTACHMENT	=  Z-Phi Stage
*ASC		=  0, 0, 0.000000, 0.000000
*I_MONOCHRO	=  Soller_slit_5.0deg, 0.000000
*FILTER		=  Cu_K-beta
*C_MONOCHRO	=  No_unit, 0.000000
*SLIT_NAME	=  0, Incident slit
*SLIT_NAME	=  1, Receiving slit # 1
*SLIT_NAME	=  2, Receiving slit # 2
*COUNTER	=  HyPix 3000(H), 0
*POS_FORMAT	=  0
*SCAN_AXIS	=  2theta/theta
*MEAS_MODE	=  Continuous Scanning
*TARGET		=  29
*XRAY_CHAR	=  K-ALPHA
*WAVE_LENGTH1	=  1.54059
*WAVE_LENGTH2	=  1.54441
*THICKNESS	=  0, 0.000000
*MU		=  0, 0.000000
*SCAN_MODE	=  2theta/theta
*SPEED_DIM	=  sec./step
*XUNIT		=  deg.
*YUNIT		=  counts
*SCALE_MODE	=  1
*REP_COUNT	=  0
*SE_COUNT	=  0
*STD_MATERIAL	=  Unknown, Unknown, 0.000000, 0.000000, 0.000000, 0.000000, 0.000000, 0.000000
*LATT_CONS	=  0, Unknown, Unknown, 0.000000, 0.000000, 0.000000, 0.000000, 0.000000, 0.000000
*SEC_COUNT	=  1
*TSPEC_SIZE	=  0
*EXTRA_SIZE	=  0
*MEMO		=

*BEGIN
*GROUP		=  0
*START		=  22
*STOP		=  36
*STEP		=  0.01
*OFFSET		=  0.000000
*SPEED		=  0.192275
*SLIT_SPEC	=  0, 1.000deg, 1, 0.000000
*SLIT_SPEC	=  1, 20.000mm, 20, 0.000000
*SLIT_SPEC	=  2, 20.100mm, 20.1, 0.000000
*KV		=  40
*MA		=  44
*LOW		=  0.000000
*HIGH		=  0.000000
*CTEMPER	=  0, 0.000000
*CTEMPER	=  1, 0.000000
*CTEMPER	=  2, 0.000000
*PAREX		=  0, 0.000000
*PAREX		=  1, 0.000000
*PAREX		=  2, 0.000000
*PAREX		=  3, 0.000000
*PAREX		=  4, 0.000000
*PAREX		=  5, 0.000000
*PAREX		=  6, 0.000000
*PAREX		=  7, 0.000000
*PAREX		=  8, 0.000000
*PAREX		=  9, 0.000000
*PAREX		=  10, 0.000000
*PAREX		=  11, 0.000000
*PAREX		=  12, 0.000000
*PAREX		=  13, 0.000000
*PAREX		=  14, 0.000000
*PAREX		=  15, 0.000000
*FULL_SCALE	=  68525.6
*INDEX		=  0, 0, 0
*COUNT		=  1401
8874.36, 8879.15, 8672.56, 8732.45
8816.06, 8729.47, 8788.26, 8794.28
8815.45, 8844.44, 8779.83, 8683.3
8591.9, 8606.05, 8866.98, 8689.88
8857.49, 8648.84, 8502.51, 8579.33
8644.89, 8559.87, 8553.74, 8717.78
8679.18, 8528.36, 8375.99, 8547.19
8570.91, 8495.05, 8512.41, 8478.07
8591.03, 8570.75, 8706.45, 8516.79
8548.02, 8608.01, 8642.1, 8630.43
8608, 8706.43, 8431.69, 8555.15
8684.19, 8702.86, 8693.44, 8790.22
9087.66, 9283.85, 9243.49, 9448.32
10133, 10230, 10568.7, 10425.9
10970.4, 10552.7, 10443.6, 10236.9
9152.98, 9112.21, 8884.97, 8995.06
8730.6, 8731.91, 8589.2, 8593.64
8614.96, 8544.41, 8744.84, 8765.16
8844.38, 8920.87, 8891.27, 9011.48
9603.23, 9797.44, 9904.64, 10130.1
9988.18, 10031.6, 9866.76, 9560.14
8819.84, 8633.57, 8559.65, 8483.14
8232.35, 8134.76, 8237.14, 8156.06
8146.47, 8272.42, 8106.2, 7981.72
7966.21, 7931.95, 7839.91, 8014.91
7940.11, 8028.01, 8060.14, 7917.63
7892.84, 8057.21, 8015.04, 8100.1
8135.55, 8341.7, 8173.01, 8475.74
8800.48, 8831.36, 9103.29, 9302.95
9972.89, 10293.6, 10465.1, 10564.7
9939.64, 9591.9, 9319.47, 9139.7
8204.29, 8216.36, 8068.42, 7810.88
7830.55, 7570.3, 7598.51, 7590.98
7491.01, 7561.14, 7467.67, 7634.79
7399.06, 7299.08, 7223.66, 7525.24
7379.03, 7426.4, 7353.95, 7226.74
7505.04, 7369.57, 7464.49, 7496.97
7305.59, 7344.1, 7335.18, 7341.8
7130.86, 7274.1, 7243.42, 7357.14
7150.01, 7161.29, 7196.47, 7280.54
7211.62, 7070.97, 7211.17, 7145.5
7216.68, 7059.56, 7044.69, 7141.01
7131.68, 7194.5, 7087.11, 7066.42
7107.64, 6981.18, 6996.16, 6959.98
6948.96, 6968.46, 6841.84, 6865.49
7070.31, 6955.1, 7015.35, 6940.33
6873.94, 6910.72, 7048.73, 7077.44
6843.54, 6804.45, 6921.09, 6939.89
6846.23, 6678.75, 6800.23, 6810.51
6925.96, 6771.93, 6857.59, 6783.77
6781.84, 6927.22, 6814.68, 6777.27
6696.15, 6601.33, 6736.44, 6728.91
6695.7, 6687.91, 6574.96, 6554.49
6691.01, 6660.12, 6521.98, 6635.48
6523.88, 6568.9, 6631.53, 6709.69
6583.23, 6666.7, 6634.19, 6641.77
6684.05, 6672.67, 6566.92, 6715.7
6965.23, 6852.56, 6858.38, 6825.86
6878.05, 6665.5, 6656.39, 6758.65
6493.52, 6401.13, 6378.86, 6460.99
6507.59, 6484.91, 6455.59, 6416.84
6390.44, 6359.75, 6326.41, 6367.12
6159.64, 6228.07, 6219.82, 6181.6
6243.68, 6356.61, 6395.86, 6219.01
6184.52, 6274.55, 6257.25, 6142.89
6184.18, 6131.19, 6092.28, 6260.94
6276.13, 6181.78, 6227.61, 6145.03
6212.61, 6160.37, 6070.88, 6077.93
6180.73, 6162.67, 6021.67, 6177.21
6259.73, 6075.15, 6052.75, 6034.93
6034.31, 6070.87, 5965.67, 6110.7
5913.25, 6027.49, 6053.51, 6038.97
6059.36, 5988.01, 6121.89, 6076.77
5895.4, 5947.95, 5900.71, 5957.3
6005.24, 5986.49, 5971.99, 5872.56
5935.33, 5827.61, 5894.7, 5953.31
5960, 6022.22, 5819.49, 5791.21
5809.49, 5793.77, 5712.47, 5737.29
5813.6, 5791.6, 5716.84, 5716.35
5745.11, 5853.1, 5872.1, 5840.76
5748.93, 5883.3, 5877.05, 5868.72
5848.39, 5795.94, 5807.91, 5768.13
5891.12, 5754.41, 5878.84, 5898.79
5955.05, 6009.13, 5958.71, 6005.18
5844.49, 5947.6, 5922.36, 5900.75
6103.86, 6111.39, 6007.06, 6006.36
5981.13, 6017.59, 5945.91, 6024.72
5842.43, 5854.56, 5820.75, 5805.1
5678.9, 5585.91, 5634.95, 5687.19
5476.09, 5639.6, 5549.46, 5678.46
5416.62, 5545.01, 5566.95, 5579.86
5424.3, 5394.96, 5386.81, 5517.01
5519.2, 5503.7, 5433.8, 5529.17
5362.11, 5404.65, 5461.89, 5438.44
5316.9, 5396.64, 5378.94, 5258.82
5377.88, 5411.73, 5425.71, 5326.76
5331.7, 5350.72, 5407.95, 5301.4
5242.48, 5315.74, 5274.29, 5317.38
5317.07, 5339.1, 5239.71, 5220.17
5247.88, 5276.9, 5224.21, 5314.02
5260.57, 5414.89, 5325.52, 5319.37
5275.97, 5282.78, 5253.06, 5259.34
5178.25, 5183.69, 5199.4, 5084.58
5114.81, 5127.8, 5115.39, 5170.08
5247.52, 5267.61, 5274.05, 5199.8
5124.75, 5082.23, 5164.87, 5047.72
5090.61, 5015.32, 5102.59, 5071.21
5067.15, 5101.86, 5082.22, 5067.56
4990.71, 5137.2, 5170.08, 5093.54
4972.81, 4996.02, 4984.96, 4989.96
5029.97, 5024.64, 5024.13, 4833.78
4916.08, 4976.03, 5044.78, 4896.78
5022.72, 5018.22, 5010.32, 4928.93
5024.69, 4976.23, 4962.13, 4999.34
4854.97, 4911.01, 4912.32, 4881.77
4862.99, 4865.49, 5095.55, 4899.44
4934.29, 4857, 4847.56, 4822.68
4863.54, 4942.1, 4828.48, 4906.13
4783.66, 4871.57, 4918.19, 4820.44
4907.56, 4843.68, 4900.13, 4792.84
4779.33, 4897.05, 4827.41, 4817.96
4741.58, 4698.11, 4741.61, 4790.98
4698.07, 4772.27, 4834.14, 4815.08
4847.87, 4756.09, 4728.97, 4655.19
4584, 4685.23, 4781.61, 4677.31
4666.29, 4699.01, 4780.63, 4699.28
4692.42, 4694.21, 4672.25, 4697.57
4609.33, 4741.6, 4665.1, 4643.19
4749.92, 4666.1, 4654.54, 4629.42
4450.72, 4526.99, 4732.04, 4633.33
4630.73, 4744.31, 4653.14, 4657.02
4584.1, 4542.88, 4600.49, 4533.84
4616.04, 4735.11, 4593.63, 4674.89
4590.07, 4497.87, 4613.01, 4600.53
4543.7, 4559.5, 4525.59, 4608.49
4538.24, 4548.57, 4590.5, 4591.19
4503.32, 4604.65, 4414.75, 4673.04
4536.91, 4612.08, 4670.81, 4540.01
4586.56, 4704.48, 4743.88, 4668.66
4845.3, 4882.27, 4851.35, 4790.03
5078.98, 5269.83, 5210.45, 5361.43
5173.62, 5151.89, 5136.77, 5079.31
4987.41, 4850.8, 4911.4, 4760.15
4738.25, 4601.18, 4676.71, 4658.77
4692.32, 4712.21, 4764.07, 4597.85
4651.74, 4611.07, 4672.23, 4744.67
4648.18, 4592.43, 4628.81, 4717.95
4652.01, 4653.18, 4610.33, 4631.94
4616.78, 4694.61, 4694.98, 4642.41
4648.04, 4823.41, 4869.9, 4926.28
5148.06, 4976.37, 5073.49, 5249.63
5359.76, 5594.67, 5584.89, 5651.87
5796.63, 5684.07, 5738.59, 5433.28
5111.57, 5055.3, 4960.84, 4900.65
4459.78, 4567.96, 4479.46, 4416.81
4399.15, 4362.14, 4329, 4393.56
4300.57, 4214.88, 4255.4, 4235.04
4207.36, 4185.79, 4251.01, 4215.44
4247.76, 4241.29, 4152.39, 4190.54
4176.89, 4109.43, 4215.54, 4211.31
4160.54, 4148.99, 4115.74, 4183.26
4073.11, 4140.83, 4191.12, 4136.05
4133.59, 4119.79, 4098.15, 4091.36
4163.85, 4121.93, 4032.67, 4129.61
4074.1, 4054.86, 4007.73, 4193.56
4046.27, 4126.15, 4087.22, 4035.24
4072.36, 4062.52, 4057.1, 4150.92
4147.97, 4181.08, 4177.78, 4246.18
4093.05, 4159.36, 4192.99, 4129.61
4153.27, 4179.95, 4150.98, 4127.22
4187.12, 4177.49, 4211.4, 4176.55
4075.83, 4110.94, 4184.67, 4142.73
3979.67, 4125.01, 4083.59, 4082.38
3928.38, 3936.61, 4017.51, 3919.9
3965.63, 3961.65, 3975.82, 3912
3942.3
*END

*EOF

File: s00125_Theta_2-Theta.asc
*TYPE		=  Raw
*CLASS		=  ASCII CLASS
*SAMPLE		=
*COMMENT	=
*FNAME		=  s00125_Theta_2-Theta.asc
*DATE		=  22-Jul-22 10:59

*GROUP_COUNT	=  1
*GONIO		=  SmartLab(In-plane), 0.000000
*ATTACHMENT	=  Z-Phi Stage
*ASC		=  0, 0, 0.000000, 0.000000
*I_MONOCHRO	=  Soller_slit_5.0deg, 0.000000
*FILTER		=  Cu_K-beta
*C_MONOCHRO	=  No_unit, 0.000000
*SLIT_NAME	=  0, Incident slit
*SLIT_NAME	=  1, Receiving slit # 1
*SLIT_NAME	=  2, Receiving slit # 2
*COUNTER	=  HyPix 3000(H), 0
*POS_FORMAT	=  0
*SCAN_AXIS	=  2theta/theta
*MEAS_MODE	=  Continuous Scanning
*TARGET		=  29
*XRAY_CHAR	=  K-ALPHA
*WAVE_LENGTH1	=  1.54059
*WAVE_LENGTH2	=  1.54441
*THICKNESS	=  0, 0.000000
*MU		=  0, 0.000000
*SCAN_MODE	=  2theta/theta
*SPEED_DIM	=  sec./step
*XUNIT		=  deg.
*YUNIT		=  counts
*SCALE_MODE	=  1
*REP_COUNT	=  0
*SE_COUNT	=  0
*STD_MATERIAL	=  Unknown, Unknown, 0.000000, 0.000000, 0.000000, 0.000000, 0.000000, 0.000000
*LATT_CONS	=  0, Unknown, Unknown, 0.000000, 0.000000, 0.000000, 0.000000, 0.000000, 0.000000
*SEC_COUNT	=  1
*TSPEC_SIZE	=  0
*EXTRA_SIZE	=  0
*MEMO		=

*BEGIN
*GROUP		=  0
*START		=  22
*STOP		=  36
*STEP		=  0.01
*OFFSET		=  0.000000
*SPEED		=  0.192275
*SLIT_SPEC	=  0, 1.000deg, 1, 0.000000
*SLIT_SPEC	=  1, 20.000mm, 20, 0.000000
*SLIT_SPEC	=  2, 20.100mm, 20.1, 0.000000
*KV		=  40
*MA		=  44
*LOW		=  0.000000
*HIGH		=  0.000000
*CTEMPER	=  0, 0.000000
*CTEMPER	=  1, 0.000000
*CTEMPER	=  2, 0.000000
*PAREX		=  0, 0.000000
*PAREX		=  1, 0.000000
*PAREX		=  2, 0.000000
*PAREX		=  3, 0.000000
*PAREX		=  4, 0.000000
*PAREX		=  5, 0.000000
*PAREX		=  6, 0.000000
*PAREX		=  7, 0.000000
*PAREX		=  8, 0.000000
*PAREX		=  9, 0.000000
*PAREX		=  10, 0.000000
*PAREX		=  11, 0.000000
*PAREX		=  12, 0.000000
*PAREX		=  13, 0.000000
*PAREX		=  14, 0.000000
*PAREX		=  15, 0.000000
*FULL_SCALE	=  67386.2
*INDEX		=  0, 0, 0
*COUNT		=  1401
8693.52, 8975.17, 8967.12, 8915.74
8938.77, 8748.11, 8759.9, 8806.11
8824.68, 8884.17, 8876.82, 8775.55
8721.35, 8653.04, 8774.58, 8802.58
8775.06, 8738.63, 8788.96, 8945.36
8719.81, 8771.33, 8815.35, 8779.74
8872.99, 8807.08, 8854.95, 8602.89
8748.12, 8708.42, 8581.48, 8656.91
8712.07, 8786.96, 8650.62, 8615.04
8618.52, 8695.01, 8715.67, 8718.46
8738.93, 8798.65, 8798.76, 8865.35
8841.4, 8789.55, 8753.68, 8838.59
9130.67, 8938.76, 8951.67, 9307.62
9767.4, 9833.81, 9947.94, 9970.73
10770.8, 10650.2, 10434.3, 10295.9
9484.73, 9456.61, 9227.85, 9123.37
8825.15, 8676.74, 8618.07, 8613.32
8706.84, 8629.04, 8634.41, 8665.85
8782.69, 8996.96, 8837.99, 8950.03
9451.45, 9392.83, 9738.96, 9743.63
9959.57, 9963.19, 9730.83, 9954.42
9010.48, 8847.78, 8793.2, 8688.47
8383.41, 8353.52, 8396.39, 8297.53
8179.65, 8206.94, 8120.06, 8100.73
8214.86, 8197.37, 8190.47, 8297.36
8130.27, 8131.19, 8145.31, 8140.83
8009.17, 8156.35, 8089.34, 8101.65
8304.11, 8332.68, 8390.63, 8399.77
8752.12, 8771.24, 8932.32, 8985.81
9522.17, 9967.55, 10077.8, 10250.4
9854.34, 9488.44, 9440.64, 9378.42
8327.98, 8367.38, 8284.96, 8147.07
7750.26, 7913.78, 7949.4, 7796.4
7735.01, 7555.53, 7645.45, 7589.61
7584.18, 7628.35, 7609.85, 7525.27
7585.9, 7595.56, 7538.51, 7333.1
7535.6, 7463.07, 7448.83, 7501.62
7497.5, 7421.97, 7378.68, 7473.54
7310.66, 7264.63, 7433.44, 7367.49
7419, 7407.8, 7342.07, 7359.02
7321.81, 7302.27, 7449.36, 7340.67
7250.21, 7190.71, 7272.34, 7409.21
7147.93, 7190.41, 7308.77, 7283.97
7203.04, 7057.32, 7210.84, 7174.06
7222.28, 7193.36, 7027.14, 6916.28
7064.31, 7076.21, 7000.14, 7146.86
7131.23, 6977.58, 6968.1, 7055.82
7196.56, 7099.49, 7056.29, 7036.92
6899.88, 6811.58, 6960.44, 6895.59
7116.14, 6878.29, 6960.35, 6943.69
6962.68, 6952.45, 7078.18, 6910.44
6892.06, 6815.8, 6833.3, 6902.87
6772.68, 6821.03, 6819.08, 6792.52
6747.21, 6625.69, 6882.17, 6723.76
6789.61, 6679.37, 6756.91, 6738.16
6662.32, 6769.24, 6852.06, 6836.32
6852.92, 6812.13, 6857.88, 6734.12
6792.4, 6969.98, 7026.11, 6952.45
6914.87, 6813.96, 6788.13, 6745.7
6770.51, 6628.44, 6739.84, 6653.05
6646.58, 6578.78, 6561.6, 6667.19
6569.06, 6438.97, 6452.47, 6430.16
6580.3, 6363.31, 6425.5, 6406.7
6347.34, 6451.66, 6413.36, 6418.51
6420.52, 6408.21, 6424.67, 6337.47
6378.86, 6380.99, 6420.54, 6430.75
6216.3, 6306.43, 6270.94, 6409.93
6279.61, 6158.06, 6337.52, 6202.12
6245.04, 6241.66, 6289.72, 6373.13
6274.56, 6070.33, 6230.18, 6251.97
6124.23, 6166.81, 6167.55, 6068.39
6105.05, 6094.47, 6168.86, 6044.35
6087.58, 6221.74, 6218.67, 6117.78
6039.98, 6196.67, 6091.73, 6157.82
6050.8, 6108.17, 5888.33, 6142.47
5952.94, 5933.82, 6074.59, 5988.07
6002.06, 5995.33, 6006.44, 5942.11
5902.93, 6049.87, 6004.03, 6036.16
5975.58, 5950.55, 5975.48, 5857.88
5935.56, 5897.51, 5981.77, 5936.94
5921.07, 5983.8, 5922.63, 5927.89
5951.01, 6021.66, 5931.21, 6020.44
5933.95, 6071.57, 6053.05, 6033.81
6010.92, 5912.9, 5974.78, 6036.21
6108.83, 5986.54, 6115.05, 6075.15
6070.66, 5978.75, 5953.13, 6004.38
6172.65, 6121.12, 6171.95, 6024.69
6046.15, 5933.17, 5937.19, 6009.31
5875.69, 5813.64, 5680.5, 5798.93
5571.79, 5633.62, 5596.75, 5508.17
5663.36, 5692.81, 5576.4, 5667.54
5606.2, 5705.83, 5652.84, 5708.92
5554.08, 5594.68, 5661.34, 5557.14
5588.84, 5565.23, 5502.99, 5572.38
5494.1, 5439.59, 5485.4, 5423.19
5400.32, 5405.8, 5459.22, 5443.23
5394.27, 5424.41, 5551.99, 5352.81
5496.44, 5446.32, 5395.37, 5554.02
5362.46, 5470.43, 5485.17, 5365.81
5501.69, 5502.47, 5452.49, 5442.69
5349.81, 5426.54, 5365.41, 5422.64
5418.61, 5473.25, 5226.11, 5447.32
5325.88, 5332.31, 5275.82, 5377.8
5321.83, 5334.98, 5284.03, 5332.66
5309.1, 5359.28, 5275.3, 5252.47
5284.56, 5207.45, 5168.16, 5285.11
5222.86, 5161.09, 5216.63, 5326.62
5270.13, 5191.73, 5141.58, 5237.44
5254.87, 5225.92, 5191.48, 5151.67
5057.13, 5199.65, 5073.08, 5011.59
5126.24, 5170.5, 5198.05, 5100.3
5042.4, 5222.9, 5206.96, 5173
4961.19, 5084.82, 5136.96, 5113.01
5084.41, 4999.46, 5136.23, 5111.64
5080.82, 5064.11, 5107.79, 5019.93
5088.42, 5020.61, 5173.08, 5139.35
5071.66, 5020.65, 4924.31, 4977.96
4971.69, 4981.82, 4984.53, 4982.72
4915.25, 5034.45, 4961.42, 4859.61
4865.49, 4957.52, 4871.07, 4858.88
4875.66, 4903.86, 4963.42, 4938.96
4856.99, 4966.65, 4718.47, 4844.93
4913.82, 4964.17, 4897.21, 4842.58
4908.95, 4945.8, 4887.98, 4870.79
4848.98, 4711.17, 4867.47, 4755.93
4810.56, 4897.62, 4829.73, 4841.89
4773.76, 4855.21, 4715.27, 4769.56
4885.14, 4834.28, 4728.2, 4814.07
4817.75, 4743.88, 4732.82, 4787.66
4765.33, 4812.51, 4749.49, 4725.42
4747.57, 4817.57, 4710.88, 4745.81
4728.83, 4727.53, 4716.69, 4633.12
4640.34, 4708.94, 4660.83, 4689.42
4633.39, 4692.84, 4647.82, 4656.58
4691.17, 4661.8, 4711.78, 4644.1
4740.85, 4655.22, 4587.6, 4695.44
4666.69, 4617.19, 4649.35, 4653.23
4576.25, 4648.79, 4620.18, 4663.09
4617.76, 4705.38, 4718.96, 4602.64
4742.35, 4825.98, 4787.79, 4893.39
5067.25, 5204.82, 5141.91, 5310.42
5357.6, 5300.49, 5195.42, 5148.65
4987.37, 4943.62, 4758.6, 4740.33
4728.99, 4666.16, 4671.17, 4659.88
4768.99, 4705.69, 4775.72, 4826.43
4705, 4715.96, 4729.21, 4769.21
4813.62, 4880.15, 4760.14, 4687.47
4605.58, 4663.49, 4758.59, 4747.14
4784.8, 4816.57, 4828.93, 4731.3
4849.87, 4835.52, 4859.96, 4862.63
4930.41, 4860.53, 4984.38, 5167.71
5272.85, 5311.8, 5431.77, 5425.11
5761.21, 5608.77, 5666.56, 5675.6
5174.2, 5174.25, 4970.49, 4852.3
4721.29, 4667.26, 4651.31, 4545.27
4459.73, 4307.32, 4367.75, 4486.69
4389.6, 4256.98, 4347.6, 4252.58
4236.56, 4273.2, 4425.32, 4421.4
4310.76, 4349.69, 4257.3, 4324.93
4236.36, 4245.43, 4196.62, 4257.53
4169.03, 4196.59, 4176.19, 4271.92
4203.79, 4190.4, 4178.32, 4137.09
4212.74, 4144.17, 4247.06, 4172.92
4296.9, 4207.9, 4214.99, 4220.63
4191.91, 4186.19, 4157.43, 4243.16
4222.74, 4146.43, 4257.16, 4198.1
4214.33, 4234.74, 4221.99, 4206.54
4203.93, 4252.03, 4188.32, 4260.39
4153.42, 4162.16, 4186.21, 4192.36
4252.27, 4335.26, 4206.23, 4210.6
4232.74, 4279.66, 4302.88, 4113.06
4158.03, 4219.84, 4125.62, 4191.43
4134.91, 4149.99, 4081.54, 4159.05
4172.71, 4166.64, 3999.78, 4109.04
4069.73, 4005.8, 4080.57, 3924.06
4003.64
*END

*EOF